Folder: ph390/comp-class/data

Note: comp-class/data/gaussian-laguerre.txt
1.7027963230510100e−1 3.6918858934163753×10−1
9.0370177679937991e−1 4.1878678081434296×10−1
2.2510866298661307 1.7579498663717181e−1
4.2667001702876588 3.3343492261215652e−2
7.0459054023934657 2.7945362352256725e−3
1.0758516010180995e+1 9.0765087733582131e−5
1.5740678641278005e+1 8.4857467162725315e−7
2.2863131736889264e+1 1.0480011748715104e−9

File: 170330-00.txt
EC-Lab ASCII FILE
Nb header lines : 59

Potentio Electrochemical Impedance Spectroscopy

Run on channel : 1 (SN 1013)
User :
Electrode connection : standard
Ewe ctrl range : min = -10.00 V, max = 10.00 V
Ewe,I filtering : 50 kHz
Channel : Floating
Acquisition started on : 03/30/2017 14:18:37
Saved on :
	File : 170330-00.mpr
	Directory : C:\EC-Lab\Data\Remington\
	Host : 127.0.0.1
Device : SP-300 (SN 0316)
Address : USB
EC-Lab for windows v10.33 (software)
Internet server v10.33 (firmware)
Command interpretor v10.32 (firmware)
Electrode material :
Initial state :
Electrolyte :
Comments :
Cable : standard
Electrode surface area : 0.001 cm²
Characteristic mass : 0.001 g
Equivalent Weight : 0.000 g/eq.
Density : 0.000 g/cm3
Mode                Single sine
E (V)               0.0000
vs.                 Eoc
tE (h:m:s)          0:00:0.0000
record              0
dI                  0.000
unit dI             mA
dt (s)              0.000
fi                  7.000
unit fi             MHz
ff                  1.000
unit ff             Hz
Nd                  10
Points              per decade
spacing             Logarithmic
Va (mV)             10.0
pw                  0.10
Na                  1
corr                0
E range min (V)     -10.000
E range max (V)     10.000
I Range             Auto
Bandwidth           8
nc cycles           0
goto Ns'            0
nr cycles           0
inc. cycle          0

freq/Hz	Re(Z)/Ohm	-Im(Z)/Ohm	|Z|/Ohm	Phase(Z)/deg	time/s	<Ewe>/V	<I>/mA	Cs/µF	Cp/µF	cycle number	I Range	|Ewe|/V	|I|/A	Re(Y)/Ohm-1	Im(Y)/Ohm-1	|Y|/Ohm-1	Phase(Y)/deg
7.00002e+06	895.754	147.373	907.796	-9.34282	2.5206	0.000326863	3.8182e-05	0.000154278	4.06595e-06	1	40	0.00771475	8.49833e-06	0.00108696	0.00017883	0.00110157	9.34282
4.40323e+06	966.233	76.2272	969.235	-4.51079	3.54674	-1.93737e-05	3.6149e-05	0.000474175	2.93292e-06	1	40	0.01024	1.05651e-05	0.00102855	8.11431e-05	0.00103174	4.51079
2.76978e+06	974.008	62.6242	976.019	-3.67879	3.8666	-1.84976e-05	3.02924e-05	0.000917558	3.77747e-06	1	40	0.0100801	1.03277e-05	0.00102246	6.57393e-05	0.00102457	3.67879
1.74228e+06	983.122	50.0906	984.397	-2.91673	4.28661	-1.50676e-05	2.95463e-05	0.00182366	4.72189e-06	1	40	0.010373	1.05374e-05	0.00101453	5.1691e-05	0.00101585	2.91673
1.09596e+06	990.542	43.582	991.5	-2.51928	4.70759	-9.54994e-06	2.56668e-05	0.0033321	6.43795e-06	1	40	0.0100816	1.01681e-05	0.0010076	4.43325e-05	0.00100857	2.51928
689392	996.309	44.1418	997.286	-2.53685	5.12759	0.000364834	9.4249e-05	0.00523003	1.02462e-05	1	40	0.0103574	1.03856e-05	0.00100174	4.43824e-05	0.00100272	2.53685
433655	999.753	51.8429	1001.1	-2.96846	5.6486	0.000389888	0.000101374	0.00707924	1.89852e-05	1	40	0.00999071	9.97977e-06	0.000997565	5.17295e-05	0.000998905	2.96846
272778	1002.96	69.4914	1005.37	-3.96348	6.06761	0.000392796	0.000100628	0.00839613	4.01138e-05	1	40	0.0103991	1.03436e-05	0.000992284	6.87516e-05	0.000994663	3.96348
171582	1009.05	103.687	1014.37	-5.86696	6.4886	0.000381182	9.94716e-05	0.00894586	9.34727e-05	1	40	0.0105135	1.03646e-05	0.000980673	0.000100771	0.000985837	5.86696
107935	1023.77	156.76	1035.7	-8.70553	6.9086	0.000377026	9.11529e-05	0.00940641	0.000215489	1	40	0.0103232	9.96731e-06	0.000954404	0.000146139	0.000965528	8.70553
67895.5	1057.55	235.222	1083.4	-12.5396	7.3286	0.00038273	9.75878e-05	0.00996556	0.000469766	1	40	0.0102877	9.4958e-06	0.000901006	0.000200402	0.000923023	12.5396
42712.4	1134.29	342.905	1184.99	-16.8205	7.74761	0.000382823	9.24585e-05	0.0108666	0.000909943	1	40	0.01018	8.59081e-06	0.000807786	0.000244201	0.000843892	16.8205
26867.7	1280.73	449.335	1357.26	-19.3331	8.06761	0.000376261	9.53308e-05	0.0131832	0.00144488	1	40	0.0101752	7.49683e-06	0.00069523	0.000243918	0.000736778	19.3331
16894.5	1492.68	499.861	1574.15	-18.5144	8.28873	0.000381518	9.82405e-05	0.0188462	0.00190033	1	40	0.0103942	6.60302e-06	0.000602384	0.000201723	0.000635263	18.5144
10634.5	1708.68	457.415	1768.84	-14.9867	8.52364	0.000377137	9.57598e-05	0.0327183	0.00218793	1	40	0.0103679	5.86138e-06	0.000546112	0.000146195	0.000565341	14.9867
6802.72	1849.66	357.114	1883.81	-10.9277	8.8582	0.000380306	9.71586e-05	0.0655135	0.00235433	1	40	0.0103287	5.48285e-06	0.000521213	0.000100631	0.000530838	10.9277
4206.34	1933.07	250.341	1949.21	-7.37899	9.32154	0.00036352	9.24771e-05	0.151142	0.00249305	1	40	0.00976449	5.00946e-06	0.00050878	6.58893e-05	0.000513029	7.37899
2645.84	1966.92	179.021	1975.05	-5.20048	9.79354	0.000366204	9.21787e-05	0.336011	0.00276059	1	40	0.0100802	5.10376e-06	0.000504232	4.58929e-05	0.000506316	5.20048
1663.4	1984.63	139.27	1989.51	-4.0141	10.2669	0.000375366	9.62914e-05	0.687015	0.00336656	1	40	0.0102064	5.13008e-06	0.000501403	3.51855e-05	0.000502636	4.0141
1046.67	1990.99	127.754	1995.08	-3.67142	10.7393	0.000371853	9.6338e-05	1.19024	0.00488049	1	40	0.0102517	5.13849e-06	0.000500204	3.20963e-05	0.000501233	3.67142
658.525	1997.41	140.774	2002.36	-4.03144	11.2111	0.000368991	9.9686e-05	1.71683	0.00848562	1	40	0.0102755	5.13167e-06	0.000498174	3.51104e-05	0.00049941	4.03144
414.073	2004.45	185.201	2012.98	-5.27885	11.6821	0.00036243	0.00010517	2.0754	0.0175673	1	40	0.0102925	5.11305e-06	0.000494668	4.57049e-05	0.000496775	5.27885
260.416	2012.69	271.282	2030.89	-7.67639	12.1542	0.000362681	9.92943e-05	2.25284	0.0401976	1	40	0.0102794	5.06152e-06	0.000487982	6.57731e-05	0.000492395	7.67639
164.003	2039.89	411.414	2080.96	-11.4027	12.626	0.000358254	9.99191e-05	2.35879	0.0921977	1	40	0.0102846	4.94226e-06	0.000471062	9.50061e-05	0.000480548	11.4027
103.054	2112.82	633.143	2205.64	-16.6818	13.1018	0.00036695	9.6394e-05	2.43923	0.200995	1	40	0.0102847	4.66291e-06	0.000434301	0.000130146	0.000453383	16.6818
64.8547	2276.99	956.556	2469.75	-22.7871	13.8091	0.000376028	2.22519e-05	2.56548	0.384842	1	41	0.0102913	4.16692e-06	0.000373297	0.000156821	0.000404899	22.7871
40.7963	2627.18	1354.7	2955.89	-27.2777	14.2703	0.000379234	2.22528e-05	2.87977	0.604874	1	41	0.0102938	3.48246e-06	0.000300686	0.000155048	0.000338308	27.2777
25.6652	3244.13	1693.93	3659.75	-27.5715	14.7199	0.000367323	2.3018e-05	3.66082	0.784275	1	41	0.0102858	2.81052e-06	0.000242212	0.000126472	0.000273243	27.5715
16.1415	4047.42	1750.83	4409.88	-23.3923	15.1731	0.000373614	2.4103e-05	5.63158	0.8877	1	41	0.0102869	2.33268e-06	0.000208125	9.00308e-05	0.000226763	23.3923
10.1593	4751.64	1474.45	4975.14	-17.2393	15.6782	0.000377342	2.54527e-05	10.6249	0.9332	1	41	0.0102852	2.06732e-06	0.000191969	5.95688e-05	0.000200999	17.2393
6.38798	5176.81	1078.22	5287.9	-11.7653	16.1548	0.000375087	2.53017e-05	23.1073	0.960724	1	41	0.0102782	1.94373e-06	0.000185138	3.85604e-05	0.000189111	11.7653
4.01878	5391.84	722.295	5440.01	-7.62996	16.6773	0.000375621	2.55777e-05	54.8292	0.96659	1	41	0.0102803	1.88975e-06	0.000182196	2.44071e-05	0.000183823	7.62996
2.52668	5487.5	466.635	5507.31	-4.86051	17.488	0.000371494	2.41324e-05	134.987	0.9691	1	41	0.0102877	1.86801e-06	0.000180924	1.5385e-05	0.000181577	4.86051
1.58984	5523.89	295.391	5531.79	-3.06099	19.3015	0.000363229	1.19602e-05	338.898	0.966346	1	42	0.010269	1.85636e-06	0.000180515	9.6531e-06	0.000180773	3.06099
1.00006	5536.59	188.091	5539.78	-1.94573	21.3015	0.000364353	1.12896e-05	846.106	0.975387	1	42	0.0102656	1.85308e-06	0.000180408	6.12892e-06	0.000180513	1.94573